Block #, Trial #, Condition, Standard #, Note,SOA, SOA Jitter, Rating, RT
0,1,2,3,f4,800,786.9361347804262,4,35.12069729999996
0,1,3,4,a4,400,370.79354288954517,1,13.7897921
0,2,1,2,c4,1000,1054.422215043498,2,10.811574099999973
0,3,3,4,f4,333,400.24503816332106,4,2.659768300000053
0,4,2,3,e4,700,536.2073901154329,1,1.1485809000000131
0,5,1,2,e4,700,854.9044479260012,4,1.0997667999999976
0,6,2,3,e4,700,434.1649606728996,1,0.9046235999999794
0,7,2,3,e4,700,582.9362699848302,1,2.248626100000024
0,8,2,3,b4,500,521.3330817098707,3,2.9510986999999886
1,1,2,3,c4,697.0,793.3278659245617,4,1.220720999999969
1,2,2,3,e4,715.0,616.3566746765584,1,0.9976482999999803
1,3,2,3,g4,385.0,503.5402526583046,4,0.6972016000000281
1,4,2,3,c4,581.0,651.5836438031328,4,1.4026256999999873
1,5,1,2,d4,697.0,814.4251567996384,4,1.4640365999999858
1,6,3,4,g4,988.0,1051.9645620516278,4,2.446135599999991
1,7,2,3,e4,387.0,530.3348110158045,4,1.9836857999999893
1,8,1,2,d4,408.0,394.2735560291818,3,4.006448900000009
1,9,1,2,e4,988.0,957.9486861062474,4,18.597885099999985
1,10,2,3,e4,644.0,839.1551704148279,4,1.2587641000000076
1,11,2,3,c4,382.0,315.3812293838612,1,1.2951625000000035
1,12,1,2,b4,337.0,428.29698031841883,4,1.4656525000000329
1,13,2,3,d4,884.0,1011.2241486913207,3,9.501768099999993
1,14,3,4,e4,581.0,695.1451273640962,1,8.79899069999999
1,15,1,2,d4,609.0,757.7922459889459,4,1.7234975000000077
1,16,3,4,f4,706.0,429.57397585445085,1,1.0194377999999915
1,17,3,4,c4,775.0,672.529995049791,1,1.8316643000000568
1,18,1,2,f4,581.0,661.7288395798624,4,1.1259208000000172
1,19,2,3,a4,988.0,788.2303619841593,1,1.341754700000024
1,20,2,3,a4,941.0,756.1434899175542,1,2.834634000000051
1,21,1,2,g4,919.0,1236.9305979834248,4,1.3540616999999884
1,22,3,4,b4,408.0,519.8813860195622,4,0.99763310000003
1,23,1,2,f4,387.0,482.26881683923773,4,1.6378356999999824
1,24,2,3,d4,337.0,439.48090516165166,4,0.9475654999999961
1,25,1,2,a4,949.0,1281.235486943004,4,0.9103177000000642
1,26,1,2,g4,706.0,528.3395241440727,1,1.9636973000000353
1,27,3,4,b4,537.0,440.5180820537638,1,1.0092345000000478
1,28,2,3,b4,609.0,708.0203295375138,4,1.0035421999999699
1,29,2,3,a4,949.0,956.1980660783122,3,3.238158999999996
1,30,3,4,c4,387.0,329.85021784111063,1,3.407646899999918
1,31,3,4,d4,884.0,707.0124232722706,1,1.1980521000000408
1,32,3,4,a4,919.0,980.8772285135705,2,9.671435299999985
1,33,3,4,a4,715.0,764.4574734807597,4,3.2681841999999506
1,34,2,3,b4,919.0,888.5630674485863,2,4.766324300000065
1,35,1,2,g4,385.0,385.93552233777905,3,5.850664000000052
1,36,1,2,c4,775.0,592.0960681905615,1,3.237770899999987
1,37,1,2,e4,644.0,586.1981600208466,1,1.9502317999999832
1,38,2,3,d4,408.0,503.28028259886094,4,0.9616449000000102
1,39,3,4,b4,438.0,460.95925395504656,3,7.0732262999999875
1,40,3,4,g4,941.0,621.4370358060239,1,1.6077792999999474
1,41,1,2,f4,537.0,732.7619443900846,4,1.5636107999999922
1,42,1,2,a4,715.0,568.1040780399228,1,1.8245781999999053
1,43,3,4,g4,609.0,681.3664020282739,4,1.532310999999936
1,44,3,4,b4,337.0,263.7439584563755,1,1.046252299999992
1,45,3,4,f4,697.0,497.40150065145156,1,0.8537643000000799
1,46,2,3,b4,430.0,434.8368517073905,2,3.860948399999984
1,47,2,3,f4,438.0,393.7509741172007,1,1.6120123000000603
1,48,1,2,c4,941.0,1127.8571664082924,4,1.5430413999999928
1,49,2,3,e4,706.0,698.7558311819153,3,6.44209410000002
1,50,2,3,a4,537.0,443.897378602942,1,1.354255099999989
1,51,3,4,e4,430.0,568.712348592551,4,1.3055266999999162
1,52,1,2,a4,382.0,465.01555429441623,1,6.373575500000015
1,53,3,4,f4,385.0,462.0526735431921,4,8.971671300000025
1,54,2,3,f4,775.0,879.2117834202735,4,3.089975400000185
1,55,1,2,c4,438.0,479.16496606255987,4,3.962459600000102
1,56,3,4,c4,949.0,1059.6578754552356,4,1.6565593000000263
1,57,1,2,b4,430.0,414.7958434754528,1,4.543588100000079
1,58,1,2,g4,884.0,793.5536600428532,1,1.551631800000223
1,59,3,4,g4,382.0,519.5058705463205,4,1.11747390000005
1,60,3,4,f4,644.0,614.6513255659438,2,3.373213000000078
2,1,1,2,g4,525.0,326.12121455213077,1,1.673159799999894
2,2,1,2,b4,595.0,666.4820284571858,3,2.892083099999809
2,3,2,3,c4,829.0,875.425509593431,3,3.785246299999926
2,4,2,3,a4,641.0,637.1526572139558,3,8.858247899999924
2,5,3,4,d4,525.0,455.64621224977463,1,1.2626366999998027
2,6,3,4,a4,357.0,452.3248834671639,4,0.8082656999999926
2,7,2,3,e4,344.0,395.4879451166736,3,4.3987469999999576
2,8,1,2,c4,344.0,402.5475909118985,4,1.5086785000000873
2,9,1,2,c4,354.0,239.27548502830385,1,0.9772409000001971
2,10,2,3,g4,802.0,506.6329018639843,1,1.5792567000000872
2,11,2,3,b4,544.0,477.12063203815717,1,1.2167243000001235
2,12,2,3,d4,523.0,529.5493078329607,2,4.498238399999991
2,13,2,3,c4,927.0,725.2551135424396,1,1.1533226999999897
2,14,2,3,f4,502.0,632.633168636853,4,1.3719114999998965
2,15,2,3,a4,630.0,864.9914588191375,4,0.9850602000001345
2,16,2,3,b4,555.0,684.6920226811378,4,0.9031018999999105
2,17,3,4,e4,829.0,509.029752160478,1,1.5124874000000545
2,18,1,2,g4,368.0,339.99750966551704,2,4.341749299999947
2,19,1,2,b4,870.0,640.6400355558561,1,3.8342442999999093
2,20,3,4,d4,344.0,414.77461241846976,4,1.152421000000004
2,21,3,4,c4,595.0,685.2330141689617,4,1.3204408999999941
2,22,3,4,d4,502.0,429.46401620205586,1,1.1914538999999422
2,23,2,3,c4,375.0,379.2981870686673,2,8.793890200000078
2,24,2,3,f4,357.0,346.2384884150726,3,7.737119299999904
2,25,1,2,a4,502.0,428.4405119206637,4,1.9487260999999307
2,26,1,2,a4,544.0,483.54921062327514,1,2.413632000000007
2,27,3,4,a4,368.0,268.0606002516081,1,1.3844736000000921
2,28,3,4,a4,635.0,844.2736964284866,4,0.9187512999999399
2,29,1,2,e4,829.0,936.1979621685972,4,3.706236100000069
2,30,1,2,a4,641.0,395.9424283374342,1,1.710228700000016
2,31,2,3,c4,870.0,752.317409156245,4,5.7204578000000765
2,32,2,3,e4,413.0,520.021390698803,4,2.053026700000146
2,33,2,3,e4,860.0,845.7617245004612,3,4.985058900000013
2,34,3,4,b4,860.0,973.5098638079861,4,1.179571800000076
2,35,3,4,e4,870.0,974.2475282643917,4,0.9637493000000177
2,36,2,3,d4,525.0,574.4811632712443,4,1.5284483999998884
2,37,3,4,g4,544.0,623.0623120933319,4,1.0080488999999488
2,38,1,2,d4,630.0,622.2303788200359,3,8.395968999999923
2,39,2,3,g4,595.0,364.8190089706457,1,1.141052899999977
2,40,3,4,f4,555.0,357.2600891439091,1,0.8238435000000663
2,41,1,2,d4,860.0,1145.96065572129,4,0.7772843000000194
2,42,2,3,c4,635.0,494.95217626617205,1,1.4709459000000606
2,43,1,2,f4,927.0,567.8081010516787,1,1.4634733999998844
2,44,3,4,f4,354.0,464.705422018536,4,0.8037764000000607
2,45,3,4,d4,927.0,657.2149300099198,1,0.9762341000000561
2,46,3,4,g4,802.0,1061.6491856725697,4,1.03695730000004
2,47,1,2,e4,555.0,559.0777243087113,2,6.068447000000106
2,48,1,2,g4,523.0,617.7558510135965,4,1.3584478999998737
2,49,1,2,f4,802.0,704.3407995309931,4,2.4738193000000592
2,50,3,4,f4,375.0,387.7892508293361,4,3.3816792999998597
2,51,1,2,f4,375.0,501.7106001209212,4,1.0457556999999724
2,52,2,3,b4,354.0,438.5189207801211,4,0.8622940000000199
2,53,1,2,g4,357.0,388.118582242573,3,4.448747200000071
2,54,3,4,b4,641.0,862.307625146664,4,1.2227278000000297
2,55,1,2,d4,635.0,553.3945286190977,1,3.912126100000023
2,56,3,4,c4,413.0,371.2806393164038,1,0.7337617999999111
2,57,3,4,a4,630.0,825.6339694507828,4,0.7071725000000697
2,58,3,4,g4,523.0,454.2081455263143,1,0.8148456000001261
2,59,2,3,e4,368.0,264.68440191105975,1,1.635800300000028
2,60,1,2,f4,413.0,553.6542186965066,4,1.6934521000000586
3,1,3,4,g4,487.0,360.3316663725536,1,1.9488463999998658
3,2,2,3,f4,668.0,677.5869092884714,1,4.74568400000021
3,3,2,3,d4,573.0,682.0827642383188,4,1.5267054999999345
3,4,1,2,b4,675.0,926.8462934017446,4,5.174442900000031
3,5,2,3,a4,800.0,535.4111258890334,1,0.9536611000000903
3,6,1,2,a4,416.0,442.0387955602244,4,1.2172706999999718
3,7,1,2,a4,374.0,325.59746270826713,2,5.526259700000082
3,8,3,4,f4,965.0,611.6138529860376,1,1.2072140000000218
3,9,2,3,d4,965.0,1125.8217136183894,4,1.5626311999999416
3,10,1,2,f4,948.0,1045.4204979743015,4,1.561761499999875
3,11,2,3,b4,566.0,558.172320985652,2,5.371711199999936
3,12,3,4,c4,573.0,770.5675879896609,4,1.760798399999885
3,13,3,4,d4,738.0,966.1907173186987,4,0.698655300000155
3,14,1,2,e4,800.0,710.6975479464331,1,1.1904858000000331
3,15,3,4,e4,416.0,463.89999946286343,4,1.470842199999879
3,16,3,4,c4,470.0,457.04726926618565,2,3.2971727999999985
3,17,1,2,c4,738.0,570.1869334943506,1,1.3708243000000948
3,18,3,4,b4,800.0,843.7340475948838,2,5.195061800000076
3,19,3,4,a4,571.0,419.9178708020687,1,10.874530999999934
3,20,1,2,g4,341.0,234.56470179100637,1,0.9180355000000873
3,21,3,4,g4,502.0,669.7013110634185,4,0.6317079000000376
3,22,1,2,c4,668.0,868.9310343281431,4,0.9253909000001386
3,23,2,3,e4,470.0,558.5258090893326,3,6.548222899999928
3,24,3,4,c4,827.0,583.7371863273794,1,2.8266783999999916
3,25,1,2,e4,502.0,473.97964383560816,2,4.051186199999847
3,26,3,4,g4,478.0,431.2580611416114,2,2.458925200000067
3,27,2,3,c4,948.0,1190.5025103180365,4,7.2826275999998416
3,28,2,3,a4,478.0,505.3055100326666,2,4.7846002999999655
3,29,2,3,d4,487.0,652.8660555622562,4,1.353204900000037
3,30,2,3,a4,502.0,372.2591392848409,1,1.149220699999887
3,31,3,4,d4,675.0,481.9697792170589,1,1.511339499999849
3,32,1,2,e4,571.0,528.9070364378442,2,3.362945300000092
3,33,3,4,f4,341.0,285.42653897125285,1,0.9942812000001595
3,34,2,3,g4,416.0,400.24426701898255,2,5.293382299999848
3,35,3,4,f4,953.0,620.962689242829,1,1.0756765000000996
3,36,3,4,b4,948.0,846.0539252397239,2,7.690183699999807
3,37,2,3,a4,738.0,1007.7239522795212,4,1.1142485000000306
3,38,2,3,g4,976.0,717.0697613251485,1,1.3200610000001234
3,39,1,2,b4,953.0,1074.6513157601412,4,1.1557259000001068
3,40,2,3,c4,571.0,768.7516226661813,4,1.480592999999999
3,41,3,4,b4,976.0,979.8328028926203,4,2.3635426999999254
3,42,1,2,g4,573.0,560.1193700493818,2,2.439149499999985
3,43,2,3,b4,953.0,1042.5145920672662,4,1.0177100000000792
3,44,1,2,e4,470.0,291.997234711254,1,3.150991900000008
3,45,2,3,f4,374.0,282.687003124345,1,2.038214799999878
3,46,1,2,g4,478.0,300.1818365061292,1,1.524763699999994
3,47,3,4,d4,374.0,494.3610459166613,4,0.867405700000063
3,48,3,4,d4,566.0,511.4770609082346,3,7.060875899999928
3,49,3,4,c4,917.0,1044.3613406629024,4,1.4396570999999767
3,50,2,3,a4,675.0,663.7774427964455,3,6.756606599999941
3,51,2,3,d4,917.0,608.6482717579901,1,1.5247264000001906
3,52,1,2,a4,917.0,970.8324362158291,3,8.458673800000042
3,53,1,2,e4,976.0,701.083044787435,1,1.1586535999999796
3,54,1,2,e4,965.0,891.5219406897791,1,2.053638200000023
3,55,1,2,g4,827.0,1103.8644265771793,4,1.0214078999999856
3,56,1,2,f4,487.0,378.8751224125517,1,2.038613499999883
3,57,2,3,c4,827.0,1153.1450795642584,4,2.2035809999999856
3,58,2,3,f4,341.0,253.24120645698673,1,1.6916183999999248
3,59,3,4,b4,668.0,828.336859028684,4,0.8172448000000259
3,60,1,2,e4,566.0,783.7874476537575,4,0.7243991000000278
4,1,1,2,b4,783.0,667.4108468003083,2,4.384788099999923
4,2,1,2,d4,493.0,338.4235047553673,1,1.1516778000000158
4,3,3,4,c4,558.0,598.7168118328051,3,9.687328100000059
4,4,1,2,e4,694.0,537.2383778717863,1,1.47467000000006
4,5,2,3,g4,931.0,814.3801732979274,1,0.9599362999999812
4,6,1,2,c4,884.0,1221.9191729520269,4,1.4845964000001004
4,7,1,2,e4,422.0,388.1321259701938,2,4.873966799999835
4,8,3,4,d4,422.0,565.8244772950387,4,1.6876385000000482
4,9,2,3,g4,558.0,726.9213334385538,4,1.238168000000087
4,10,1,2,e4,558.0,684.4150114655017,2,8.295045999999957
4,11,2,3,f4,382.0,445.029039841256,4,3.223547499999995
4,12,3,4,f4,931.0,1115.686110961499,4,0.7445353999999043
4,13,3,4,c4,382.0,448.08551890699266,3,6.291767700000037
4,14,3,4,g4,886.0,813.7585713295177,1,1.188582199999928
4,15,2,3,g4,493.0,551.1643795092921,2,4.9089162999998734
4,16,3,4,f4,884.0,965.8794790855986,2,9.575190099999872
4,17,2,3,b4,820.0,818.8668515175195,2,9.811832999999979
4,18,2,3,e4,886.0,1189.1730552729798,4,1.2296856999998909
4,19,1,2,c4,646.0,793.066051658356,4,1.8514333000000534
4,20,2,3,e4,884.0,824.1901063478922,3,6.1223039999999855
4,21,2,3,f4,719.0,660.5282501620168,1,1.6434934999999768
4,22,2,3,a4,961.0,824.004122468908,1,1.4881659999998647
4,23,1,2,c4,931.0,685.6076863165193,1,1.291412199999968
4,24,3,4,f4,602.0,795.2564397680809,4,10.758057400000098
4,25,3,4,a4,388.0,387.76792366041263,2,7.0300953999999365
4,26,2,3,a4,646.0,542.1132176083253,1,1.463575199999923
4,27,3,4,e4,820.0,642.4638291467031,1,1.0746644000000742
4,28,2,3,b4,422.0,310.3697395454094,1,1.6073933000000125
4,29,3,4,b4,948.0,1242.061788947361,4,1.1317254000000503
4,30,2,3,b4,623.0,456.18239712942454,1,1.2517387000000326
4,31,2,3,g4,598.0,544.9891353323045,3,8.475582399999894
4,32,1,2,a4,598.0,507.5737630569108,2,3.7336413999998967
4,33,1,2,f4,623.0,465.1548347970662,1,1.023384599999872
4,34,1,2,a4,886.0,547.0751690640493,1,1.006640900000093
4,35,3,4,d4,719.0,982.2932167699693,4,0.6512589999999818
4,36,3,4,a4,598.0,385.7505058494029,1,1.688569599999937
4,37,1,2,b4,948.0,938.0450348957954,4,2.441263399999798
4,38,2,3,g4,693.0,424.6155925329677,1,0.9986172999999781
4,39,2,3,d4,694.0,626.4636959997847,1,9.324431100000083
4,40,1,2,g4,602.0,704.9020095709809,4,3.0777548000000934
4,41,3,4,c4,931.0,807.9938604328943,1,0.9367446999999629
4,42,3,4,e4,694.0,560.2466295000254,1,3.031291599999804
4,43,1,2,d4,961.0,643.8924850914283,1,1.1927205000001777
4,44,3,4,d4,646.0,763.1298349921433,4,1.1836683999999877
4,45,1,2,e4,388.0,438.3899600109109,1,2.80250460000002
4,46,3,4,b4,693.0,527.9807773118811,1,1.0654822999999851
4,47,1,2,c4,719.0,736.8451174139186,2,5.626457200000232
4,48,1,2,a4,820.0,703.7207967495842,4,12.376202400000238
4,49,2,3,c4,948.0,1059.3095129199846,4,1.724271300000055
4,50,1,2,f4,693.0,546.9012333357819,1,1.808389199999965
4,51,3,4,d4,783.0,919.779764429087,4,1.6493452999998226
4,52,2,3,a4,783.0,775.81885778223,3,7.010837400000128
4,53,3,4,e4,623.0,770.2486207018283,4,1.5392794999997932
4,54,3,4,c4,493.0,634.2686775526704,4,9.200228700000025
4,55,2,3,f4,931.0,1092.5944551254024,4,1.194260100000065
4,56,3,4,b4,961.0,977.7105878365252,3,2.8457408999997824
4,57,1,2,g4,382.0,449.7173000339029,4,2.40981469999997
4,58,2,3,g4,602.0,780.1388112746143,4,0.8964089999999487
4,59,2,3,d4,388.0,366.8060790092651,3,6.372253300000011
4,60,1,2,d4,931.0,651.3027523882755,1,1.5628569000000425
