Block #, Trial #, Condition, Standard #, Note,SOA, SOA Jitter, Rating, RT
0,1,2,3,f4,800,725.5559815658883,3,27.455768500000033
0,1,3,4,f4,800,1067.6554605619874,3,3.1335966000000326
0,2,1,2,f4,800,1040.7326406135721,4,5.525363099999936
0,3,3,4,f4,333,387.62421092257705,3,7.526633600000082
0,4,2,3,b4,500,478.1634010268175,3,6.275704000000019
0,5,2,3,g4,400,412.87878205357924,3,5.788669900000059
0,6,3,4,d4,500,688.0523985961056,4,7.437621600000057
0,7,3,4,e4,700,798.0074157688005,4,2.093740499999967
0,8,3,4,a4,900,1074.339632208078,4,2.075949800000103
1,1,1,2,c4,350.0,426.8179115112848,3,7.181724700000018
1,2,1,2,g4,939.0,701.1095272922585,3,3.811706600000093
1,3,3,4,g4,560.0,655.7650323026969,4,1.7338695000000826
1,4,1,2,g4,543.0,629.3562134463924,3,3.3958697000000484
1,5,1,2,b4,939.0,609.1600367235529,4,8.225793100000033
1,6,3,4,f4,655.0,616.0810494061279,2,2.8756971999999905
1,7,1,2,a4,560.0,604.7319138507312,2,4.490085199999953
1,8,1,2,b4,602.0,392.27773717109346,1,4.01378729999999
1,9,3,4,e4,350.0,388.9854844408194,2,4.243717800000013
1,10,2,3,g4,820.0,861.0208844998806,3,6.7678249000000505
1,11,3,4,d4,939.0,1233.253338895627,4,2.9018098000000236
1,12,2,3,c4,543.0,664.4096230800676,3,5.883767799999987
1,13,1,2,c4,745.0,860.6563163626745,3,3.6467430999999806
1,14,2,3,b4,460.0,380.50692812796615,2,8.059822300000064
1,15,2,3,b4,745.0,610.070962007533,3,8.522780000000012
1,16,3,4,e4,745.0,969.6744009412561,4,3.142322799999988
1,17,3,4,a4,915.0,976.5228993967644,3,6.347917100000018
1,18,1,2,g4,460.0,396.86795517560836,2,5.315782799999965
1,19,2,3,a4,886.0,719.1166633376441,2,2.6577411000000666
1,20,3,4,c4,983.0,1281.3415333325797,4,2.367872000000034
1,21,2,3,a4,564.0,455.8612517241424,2,3.3117200000000366
1,22,1,2,g4,983.0,1113.314242689854,3,4.241722600000003
1,23,1,2,g4,577.0,743.7751805545838,2,6.311896900000079
1,24,3,4,f4,784.0,841.9163678676277,3,4.639717500000074
1,25,1,2,a4,915.0,811.9094341165094,3,7.787790200000018
1,26,3,4,b4,906.0,723.963834012997,2,5.616800499999954
1,27,2,3,a4,602.0,471.0430174516382,3,32.293786400000045
1,28,1,2,d4,655.0,899.7308579634796,3,3.4745971999999483
1,29,2,3,e4,915.0,1140.8605735775645,4,2.617733600000065
1,30,3,4,f4,489.0,434.08885154096697,2,2.587760900000035
1,31,2,3,a4,577.0,731.1797845260726,4,3.238160100000073
1,32,1,2,b4,347.0,295.41078979243673,2,6.0380351999999675
1,33,2,3,e4,939.0,1077.8284619063033,3,3.80169340000009
1,34,1,2,f4,489.0,611.897046402871,2,2.437868000000094
1,35,1,2,f4,906.0,830.3934048444889,3,16.850786800000037
1,36,1,2,b4,564.0,424.29704926755767,2,10.04872929999999
1,37,2,3,f4,537.0,370.3945962683187,2,3.08486100000016
1,38,1,2,d4,537.0,483.96774447667383,2,6.42776420000007
1,39,1,2,a4,784.0,862.0605252036044,3,9.18424369999991
1,40,2,3,e4,347.0,257.4158555403885,2,1.4380945999999994
1,41,3,4,f4,460.0,622.0015795442534,3,2.335814300000152
1,42,2,3,c4,939.0,907.9534798981883,3,4.077856600000246
1,43,2,3,b4,560.0,527.2575398554574,3,6.944754900000248
1,44,1,2,c4,820.0,529.5610992142402,2,9.205763200000206
1,45,3,4,d4,543.0,536.921079760124,2,6.88790860000006
1,46,3,4,c4,347.0,285.77782291907613,2,1.6859503000001723
1,47,3,4,c4,564.0,609.919311435143,3,5.4459006000003
1,48,2,3,g4,489.0,485.10503831063136,2,8.95367140000019
1,49,3,4,f4,939.0,1156.8919210806198,4,2.0776549000003115
1,50,2,3,d4,906.0,1142.1503565482158,4,1.1297646000001578
1,51,3,4,e4,537.0,514.0163840510188,2,2.131663400000093
1,52,3,4,d4,886.0,989.6131747203882,3,1.5186440000001085
1,53,3,4,e4,577.0,743.7741867500526,3,1.8198137000000543
1,54,2,3,f4,983.0,836.0365586523912,3,3.5098499000001766
1,55,2,3,a4,350.0,354.8633571313151,2,8.11282400000016
1,56,3,4,e4,820.0,662.1549709338535,3,7.0576791000002
1,57,2,3,g4,655.0,558.3244170938375,3,2.687853400000108
1,58,3,4,d4,602.0,573.588213874408,2,2.2698642000001428
1,59,1,2,d4,886.0,1238.5425143721206,4,5.2417186999999785
1,60,2,3,d4,784.0,792.26064085558,4,5.0617573000000675
2,1,2,3,b4,566.0,341.60906224772026,1,2.335638500000073
2,2,3,4,g4,689.0,447.4604324195355,1,4.547893199999976
2,3,1,2,c4,759.0,934.0388532532133,3,3.093857299999968
2,4,2,3,a4,732.0,639.5475775614138,3,4.657779400000095
2,5,3,4,a4,449.0,545.3831041812927,4,3.0618254000002025
2,6,3,4,e4,445.0,452.83587182585563,3,6.109002700000133
2,7,1,2,a4,954.0,1203.6567118755197,4,4.173854000000233
2,8,1,2,a4,926.0,1256.1661775514885,3,6.41184120000014
2,9,3,4,f4,489.0,392.39501411469405,1,2.838749600000142
2,10,2,3,f4,489.0,521.8246960628114,3,3.8907157000002144
2,11,2,3,e4,461.0,402.6432217205935,3,6.663767000000007
2,12,1,2,d4,475.0,522.3316277048331,3,5.584735400000227
2,13,1,2,e4,445.0,317.1776938659281,1,4.052061099999946
2,14,1,2,g4,851.0,1129.8141048540424,4,2.035708300000124
2,15,2,3,d4,344.0,412.61975943041574,3,3.70185790000005
2,16,3,4,e4,954.0,811.9665995703019,2,2.6497237000003224
2,17,2,3,a4,911.0,1009.68869335303,3,4.247767500000236
2,18,1,2,g4,489.0,559.3324490795915,3,6.571729700000105
2,19,3,4,g4,926.0,1119.6068708821676,3,4.179844600000024
2,20,2,3,b4,641.0,395.19555352883236,1,4.845757100000128
2,21,2,3,d4,926.0,917.7071178273618,3,7.559727100000146
2,22,2,3,g4,851.0,873.5180856152814,3,3.803808500000059
2,23,1,2,b4,641.0,390.5656411204221,2,5.948749800000314
2,24,3,4,f4,759.0,561.9069814717745,2,2.3518169000001308
2,25,3,4,c4,911.0,661.9300544628604,2,7.241818900000226
2,26,3,4,c4,392.0,429.9485573208028,3,12.81370220000008
2,27,2,3,g4,523.0,606.7055247352221,3,5.14288310000029
2,28,1,2,f4,523.0,409.18966863628384,3,2.7478424000000814
2,29,2,3,e4,507.0,482.5207681216808,3,5.477705700000115
2,30,2,3,c4,759.0,706.3059940753365,3,6.164930099999992
2,31,1,2,g4,732.0,578.367788525472,2,2.166817700000138
2,32,1,2,f4,911.0,604.2837846399043,2,3.508852299999944
2,33,1,2,a4,566.0,369.41498238057636,2,3.3259133000001384
2,34,2,3,g4,954.0,1131.1348557795554,3,7.220937399999912
2,35,1,2,d4,545.0,598.6270306983026,3,4.13268549999998
2,36,3,4,c4,474.0,358.05376545296235,2,1.9168495000003531
2,37,3,4,b4,851.0,1154.984191199331,4,2.5906767000003583
2,38,1,2,d4,474.0,593.9927720965978,3,6.015850200000386
2,39,3,4,c4,732.0,923.7962456297553,3,2.5647323000000597
2,40,2,3,b4,475.0,622.4211382636415,3,2.7520509000000857
2,41,3,4,a4,566.0,759.4283981974861,3,2.1508460000000014
2,42,1,2,d4,344.0,222.57902089672808,1,5.449716500000022
2,43,2,3,b4,474.0,641.1279195179412,3,4.902307000000064
2,44,3,4,c4,507.0,346.9676604916985,2,1.3755391000001964
2,45,1,2,d4,449.0,297.4827671257497,3,6.685011500000201
2,46,2,3,e4,689.0,419.4213561988786,2,6.084664399999838
2,47,2,3,e4,449.0,404.0932514038237,2,5.103046899999981
2,48,1,2,f4,689.0,527.8337947164435,2,2.9016328000000158
2,49,1,2,a4,461.0,290.5173853563907,2,1.0938043999999536
2,50,3,4,b4,344.0,424.4512332516755,3,2.0012014000001273
2,51,1,2,b4,392.0,431.5753271110477,3,4.076229499999954
2,52,1,2,c4,507.0,697.6470337827511,3,4.712458900000229
2,53,2,3,a4,445.0,389.9192263731644,3,7.589784300000019
2,54,3,4,f4,523.0,595.3295737092369,3,4.813055500000246
2,55,2,3,d4,392.0,283.52767431197964,2,1.1942047000000002
2,56,3,4,c4,475.0,313.25710414845906,1,1.8068026000003101
2,57,3,4,f4,641.0,730.7809932793552,3,3.198755399999982
2,58,2,3,f4,545.0,374.6627006067576,3,6.043263199999956
2,59,3,4,e4,545.0,602.8396292739936,3,2.7717852000000676
2,60,3,4,b4,461.0,303.3154716818422,2,1.04723829999989
3,1,3,4,g4,539.0,553.3983525731926,3,13.572814999999991
3,2,2,3,a4,539.0,581.4962908724099,3,5.145293800000218
3,3,3,4,f4,386.0,380.9735367589168,3,6.623722200000202
3,4,2,3,a4,815.0,601.376276168211,2,1.9028752000003806
3,5,2,3,f4,368.0,490.51883878542435,2,6.2437084000000596
3,6,2,3,d4,993.0,824.9727870596523,2,1.9185985000001438
3,7,3,4,b4,339.0,230.26506600588542,1,1.199168600000121
3,8,1,2,e4,561.0,678.5409921108708,3,9.886847100000068
3,9,1,2,b4,710.0,479.1014610056841,3,4.695830999999998
3,10,1,2,c4,339.0,442.12731341685384,3,4.872227600000315
3,11,3,4,d4,393.0,455.53063236084483,3,4.807122200000322
3,12,1,2,b4,436.0,263.7979152430506,2,3.335916300000008
3,13,2,3,b4,651.0,733.7806080161329,3,3.9017737999997735
3,14,1,2,g4,779.0,514.8452778123544,3,2.8307417999999416
3,15,2,3,c4,339.0,354.95396472640783,3,5.633012100000087
3,16,2,3,b4,875.0,581.6002387595836,2,1.7747526999996808
3,17,2,3,e4,386.0,238.27718047312098,2,2.460962499999823
3,18,1,2,c4,393.0,531.757383368811,3,2.975792999999612
3,19,2,3,e4,393.0,354.68304003796675,3,8.353767599999628
3,20,3,4,f4,922.0,1148.6588421015738,4,2.623786099999961
3,21,2,3,b4,637.0,392.2751057344991,2,3.7427354999999807
3,22,3,4,e4,651.0,782.3909226170268,4,2.2451750000000175
3,23,2,3,a4,568.0,764.4122283374697,3,5.819369599999845
3,24,2,3,e4,561.0,515.7746432323847,3,3.4427676000000247
3,25,3,4,b4,568.0,532.7842451445894,3,5.104698300000109
3,26,1,2,c4,815.0,929.59609479886,3,4.590266799999881
3,27,1,2,f4,651.0,505.8194378825403,3,4.071052900000268
3,28,2,3,g4,797.0,808.3366275540486,3,3.630873000000065
3,29,1,2,d4,993.0,1040.516992157584,3,3.8046959999996943
3,30,1,2,e4,568.0,464.7332016121575,3,5.4137651000000915
3,31,3,4,a4,779.0,649.1068012250281,2,1.7917675000003328
3,32,3,4,g4,366.0,371.8142481837429,3,7.667750000000069
3,33,1,2,e4,463.0,601.4092044132832,3,4.736747999999807
3,34,2,3,d4,366.0,412.17009185240283,3,6.1157601999998406
3,35,1,2,d4,922.0,664.6355372315334,3,5.754713199999969
3,36,1,2,g4,619.0,419.40292663357695,2,1.716793399999915
3,37,3,4,f4,797.0,486.8151558744501,2,1.1369811999998092
3,38,3,4,a4,710.0,451.23510196762845,2,1.6127800000003845
3,39,3,4,a4,637.0,662.6718129434719,2,2.066752499999893
3,40,2,3,c4,779.0,1068.3990938921638,3,0.8759399000000485
3,41,3,4,f4,561.0,579.3276704538468,2,4.01081239999985
3,42,2,3,c4,463.0,615.7505074756263,3,3.641034299999774
3,43,3,4,e4,463.0,486.8034355724567,3,3.589754200000243
3,44,3,4,f4,815.0,673.3988907774495,4,3.472720400000071
3,45,3,4,d4,368.0,343.57033376268146,3,6.437779200000023
3,46,3,4,g4,436.0,510.97680546683165,3,1.4298518999999033
3,47,1,2,g4,386.0,408.0731574880938,3,3.8689266999999745
3,48,2,3,b4,710.0,487.9955167764781,1,7.205300099999931
3,49,1,2,a4,875.0,1215.5543176106642,3,4.044156899999962
3,50,2,3,g4,922.0,745.4427760824879,3,3.1029037999996945
3,51,1,2,f4,539.0,546.5446667741614,3,6.848855600000206
3,52,2,3,c4,619.0,415.63389388591185,2,4.480658500000118
3,53,3,4,e4,875.0,727.2219555123785,2,1.9228330999999343
3,54,1,2,d4,368.0,288.89251751010283,2,3.059869400000025
3,55,2,3,a4,436.0,433.3072288210866,3,2.5767620999999963
3,56,3,4,c4,619.0,629.8466081241681,3,2.4267495999997664
3,57,3,4,c4,993.0,853.5556753564244,3,1.5348944999996093
3,58,1,2,d4,637.0,422.2807503234421,3,2.9768004000002293
3,59,1,2,d4,797.0,535.1155171047849,3,3.6488227999998344
3,60,1,2,b4,366.0,291.8918070532526,2,2.776013199999852
4,1,2,3,e4,480.0,555.0836788964695,2,4.098747600000024
4,2,2,3,d4,962.0,1233.8119789070033,3,5.480793799999901
4,3,1,2,c4,643.0,473.76583812673545,2,2.0666701999998622
4,4,3,4,f4,527.0,722.7456050239147,4,2.5367867999998452
4,5,2,3,e4,905.0,953.8710005222645,3,3.0148879000003035
4,6,2,3,c4,587.0,749.306988666807,4,1.620772599999782
4,7,1,2,c4,527.0,712.4547135601109,3,2.79480250000006
4,8,1,2,g4,562.0,389.6076272801532,2,3.6755717000000914
4,9,3,4,a4,629.0,532.403349382611,2,2.458861699999943
4,10,2,3,c4,988.0,1282.1570784181947,4,2.1627551000001404
4,11,3,4,d4,905.0,959.4858757914578,3,4.159722299999885
4,12,3,4,c4,697.0,690.011063154359,3,6.148821300000236
4,13,2,3,b4,930.0,700.4841162837662,2,6.16974829999981
4,14,3,4,b4,643.0,733.3447608121896,3,5.34477169999991
4,15,3,4,g4,430.0,487.6012687109149,2,1.1287360999999692
4,16,1,2,e4,575.0,481.6069293323379,1,4.428678199999922
4,17,2,3,d4,562.0,518.8400935432221,3,4.045334500000081
4,18,1,2,f4,941.0,1193.7365702323088,3,2.231349600000158
4,19,2,3,b4,768.0,489.39285293890475,2,5.715736000000106
4,20,1,2,f4,334.0,379.861289123225,2,1.5217345999999452
4,21,2,3,d4,941.0,1312.9243559153078,4,2.5337305000002743
4,22,2,3,d4,643.0,625.0478304977046,3,4.112740699999904
4,23,1,2,d4,930.0,1196.758306943924,3,3.7149148999997124
4,24,2,3,a4,527.0,526.2689166270546,3,7.442827099999704
4,25,3,4,g4,575.0,550.6798706325299,3,2.905764900000122
4,26,1,2,f4,988.0,664.1175349345191,3,4.791821599999821
4,27,2,3,g4,334.0,274.00585764404093,2,2.5028764999997293
4,28,2,3,f4,974.0,670.9955649525391,3,3.1095737999999074
4,29,1,2,f4,962.0,621.5274932664669,3,2.388868900000034
4,30,1,2,f4,629.0,808.343084085524,3,2.2978211999998166
4,31,3,4,c4,974.0,1179.250104353196,3,2.6291677999997773
4,32,3,4,a4,480.0,317.0501881962652,2,2.5258426999998846
4,33,1,2,d4,587.0,557.734623365825,2,13.416686300000038
4,34,2,3,a4,575.0,643.5560164048256,2,9.832729500000369
4,35,3,4,e4,480.0,595.947128572062,3,1.6487367999998241
4,36,3,4,c4,962.0,818.3334668839015,3,3.5966788999999153
4,37,3,4,a4,941.0,924.9770435913824,3,1.5187900999999329
4,38,1,2,e4,782.0,987.0433219948256,3,4.472745299999588
4,39,3,4,a4,334.0,356.036908371025,2,2.960723700000017
4,40,3,4,d4,587.0,456.55451331699385,2,2.948882600000161
4,41,3,4,f4,562.0,638.9502049438138,3,5.160719699999845
4,42,3,4,e4,930.0,1009.6816249396927,3,2.908792700000049
4,43,1,2,a4,905.0,1178.5339041115935,4,2.1947737000000416
4,44,3,4,a4,768.0,841.8193580245567,3,4.428806399999758
4,45,2,3,e4,697.0,640.2407824869337,3,2.567802699999902
4,46,2,3,b4,430.0,434.1765123670242,3,4.259911799999827
4,47,2,3,g4,782.0,791.3483549449895,3,2.7227751000000353
4,48,1,2,g4,343.0,464.7243892404575,3,3.9647863999998663
4,49,1,2,d4,974.0,790.5615597620125,3,5.513368200000059
4,50,1,2,b4,697.0,868.0236269119446,3,4.212748100000226
4,51,1,2,c4,480.0,555.804007524733,3,5.9827666999999565
4,52,3,4,b4,782.0,870.4441822875727,3,1.2547918000000209
4,53,3,4,e4,988.0,681.3072847375513,3,3.7928452000001016
4,54,2,3,e4,629.0,598.2269632674406,3,5.2840925000000425
4,55,1,2,b4,430.0,533.836420226549,3,7.3138677000001735
4,56,1,2,g4,480.0,652.7998528224801,3,6.729841299999862
4,57,3,4,g4,343.0,468.67472267303435,4,1.64986590000035
4,58,2,3,b4,480.0,291.80864344251637,3,6.162694099999953
4,59,1,2,f4,768.0,743.9754040377398,3,1.9017734999997629
4,60,2,3,a4,343.0,239.54660709594265,2,4.083461299999726
